File: UV-Vis Nanotubes_04172017/New 24DF.txt
"New 24DF.spc - RawData"
"Wavelength nm.","Abs."
450.00,0.101
450.50,0.101
451.00,0.101
451.50,0.101
452.00,0.102
452.50,0.102
453.00,0.102
453.50,0.102
454.00,0.102
454.50,0.102
455.00,0.102
455.50,0.102
456.00,0.103
456.50,0.103
457.00,0.103
457.50,0.103
458.00,0.103
458.50,0.104
459.00,0.104
459.50,0.104
460.00,0.104
460.50,0.104
461.00,0.104
461.50,0.105
462.00,0.105
462.50,0.105
463.00,0.105
463.50,0.105
464.00,0.105
464.50,0.106
465.00,0.106
465.50,0.106
466.00,0.106
466.50,0.106
467.00,0.106
467.50,0.106
468.00,0.106
468.50,0.106
469.00,0.106
469.50,0.106
470.00,0.106
470.50,0.105
471.00,0.105
471.50,0.105
472.00,0.105
472.50,0.105
473.00,0.104
473.50,0.104
474.00,0.104
474.50,0.103
475.00,0.103
475.50,0.103
476.00,0.102
476.50,0.102
477.00,0.102
477.50,0.101
478.00,0.101
478.50,0.101
479.00,0.100
479.50,0.100
480.00,0.099
480.50,0.099
481.00,0.098
481.50,0.098
482.00,0.098
482.50,0.097
483.00,0.097
483.50,0.096
484.00,0.096
484.50,0.096
485.00,0.095
485.50,0.095
486.00,0.095
486.50,0.094
487.00,0.094
487.50,0.094
488.00,0.093
488.50,0.093
489.00,0.093
489.50,0.093
490.00,0.093
490.50,0.093
491.00,0.092
491.50,0.092
492.00,0.092
492.50,0.092
493.00,0.092
493.50,0.092
494.00,0.092
494.50,0.092
495.00,0.092
495.50,0.092
496.00,0.092
496.50,0.092
497.00,0.092
497.50,0.092
498.00,0.092
498.50,0.092
499.00,0.092
499.50,0.092
500.00,0.092
500.50,0.092
501.00,0.092
501.50,0.092
502.00,0.093
502.50,0.093
503.00,0.093
503.50,0.093
504.00,0.093
504.50,0.094
505.00,0.094
505.50,0.094
506.00,0.094
506.50,0.094
507.00,0.094
507.50,0.095
508.00,0.095
508.50,0.095
509.00,0.095
509.50,0.095
510.00,0.095
510.50,0.095
511.00,0.096
511.50,0.096
512.00,0.096
512.50,0.096
513.00,0.096
513.50,0.096
514.00,0.096
514.50,0.096
515.00,0.096
515.50,0.096
516.00,0.096
516.50,0.096
517.00,0.096
517.50,0.096
518.00,0.096
518.50,0.096
519.00,0.096
519.50,0.096
520.00,0.096
520.50,0.096
521.00,0.096
521.50,0.096
522.00,0.095
522.50,0.095
523.00,0.095
523.50,0.095
524.00,0.095
524.50,0.095
525.00,0.095
525.50,0.095
526.00,0.094
526.50,0.094
527.00,0.094
527.50,0.094
528.00,0.094
528.50,0.094
529.00,0.094
529.50,0.093
530.00,0.093
530.50,0.093
531.00,0.093
531.50,0.093
532.00,0.093
532.50,0.093
533.00,0.092
533.50,0.092
534.00,0.092
534.50,0.092
535.00,0.092
535.50,0.092
536.00,0.092
536.50,0.092
537.00,0.092
537.50,0.091
538.00,0.091
538.50,0.091
539.00,0.091
539.50,0.091
540.00,0.091
540.50,0.091
541.00,0.091
541.50,0.091
542.00,0.091
542.50,0.091
543.00,0.091
543.50,0.091
544.00,0.091
544.50,0.091
545.00,0.091
545.50,0.091
546.00,0.091
546.50,0.092
547.00,0.092
547.50,0.092
548.00,0.092
548.50,0.092
549.00,0.092
549.50,0.093
550.00,0.093
550.50,0.093
551.00,0.093
551.50,0.094
552.00,0.094
552.50,0.094
553.00,0.094
553.50,0.095
554.00,0.095
554.50,0.095
555.00,0.096
555.50,0.096
556.00,0.097
556.50,0.097
557.00,0.097
557.50,0.098
558.00,0.098
558.50,0.099
559.00,0.099
559.50,0.100
560.00,0.101
560.50,0.101
561.00,0.102
561.50,0.102
562.00,0.103
562.50,0.104
563.00,0.104
563.50,0.105
564.00,0.106
564.50,0.107
565.00,0.107
565.50,0.108
566.00,0.109
566.50,0.109
567.00,0.110
567.50,0.111
568.00,0.111
568.50,0.112
569.00,0.112
569.50,0.113
570.00,0.113
570.50,0.114
571.00,0.114
571.50,0.115
572.00,0.115
572.50,0.116
573.00,0.116
573.50,0.116
574.00,0.116
574.50,0.117
575.00,0.117
575.50,0.117
576.00,0.117
576.50,0.118
577.00,0.118
577.50,0.118
578.00,0.118
578.50,0.118
579.00,0.118
579.50,0.119
580.00,0.119
580.50,0.119
581.00,0.119
581.50,0.119
582.00,0.119
582.50,0.119
583.00,0.119
583.50,0.119
584.00,0.119
584.50,0.119
585.00,0.119
585.50,0.119
586.00,0.119
586.50,0.119
587.00,0.119
587.50,0.119
588.00,0.119
588.50,0.118
589.00,0.118
589.50,0.118
590.00,0.118
590.50,0.117
591.00,0.117
591.50,0.117
592.00,0.117
592.50,0.116
593.00,0.116
593.50,0.116
594.00,0.115
594.50,0.115
595.00,0.114
595.50,0.114
596.00,0.114
596.50,0.113
597.00,0.113
597.50,0.112
598.00,0.112
598.50,0.111
599.00,0.111
599.50,0.110
600.00,0.110
600.50,0.109
601.00,0.109
601.50,0.108
602.00,0.108
602.50,0.107
603.00,0.106
603.50,0.106
604.00,0.105
604.50,0.105
605.00,0.104
605.50,0.104
606.00,0.103
606.50,0.103
607.00,0.102
607.50,0.102
608.00,0.101
608.50,0.101
609.00,0.100
609.50,0.100
610.00,0.099
610.50,0.099
611.00,0.098
611.50,0.097
612.00,0.097
612.50,0.096
613.00,0.096
613.50,0.096
614.00,0.095
614.50,0.095
615.00,0.094
615.50,0.094
616.00,0.093
616.50,0.093
617.00,0.092
617.50,0.092
618.00,0.091
618.50,0.091
619.00,0.091
619.50,0.090
620.00,0.090
620.50,0.090
621.00,0.089
621.50,0.089
622.00,0.089
622.50,0.088
623.00,0.088
623.50,0.088
624.00,0.087
624.50,0.087
625.00,0.087
625.50,0.086
626.00,0.086
626.50,0.086
627.00,0.086
627.50,0.086
628.00,0.085
628.50,0.085
629.00,0.085
629.50,0.085
630.00,0.085
630.50,0.084
631.00,0.084
631.50,0.084
632.00,0.084
632.50,0.084
633.00,0.084
633.50,0.084
634.00,0.084
634.50,0.084
635.00,0.084
635.50,0.084
636.00,0.084
636.50,0.084
637.00,0.084
637.50,0.084
638.00,0.084
638.50,0.084
639.00,0.084
639.50,0.084
640.00,0.084
640.50,0.084
641.00,0.084
641.50,0.085
642.00,0.085
642.50,0.085
643.00,0.085
643.50,0.085
644.00,0.085
644.50,0.085
645.00,0.085
645.50,0.086
646.00,0.086
646.50,0.086
647.00,0.086
647.50,0.086
648.00,0.086
648.50,0.087
649.00,0.087
649.50,0.087
650.00,0.087
650.50,0.087
651.00,0.087
651.50,0.087
652.00,0.088
652.50,0.088
653.00,0.088
653.50,0.088
654.00,0.088
654.50,0.088
655.00,0.088
655.50,0.088
656.00,0.089
656.50,0.089
657.00,0.089
657.50,0.089
658.00,0.089
658.50,0.089
659.00,0.089
659.50,0.089
660.00,0.089
660.50,0.089
661.00,0.090
661.50,0.090
662.00,0.090
662.50,0.090
663.00,0.090
663.50,0.090
664.00,0.090
664.50,0.090
665.00,0.090
665.50,0.090
666.00,0.090
666.50,0.090
667.00,0.090
667.50,0.090
668.00,0.090
668.50,0.090
669.00,0.090
669.50,0.089
670.00,0.089
670.50,0.089
671.00,0.089
671.50,0.089
672.00,0.089
672.50,0.089
673.00,0.088
673.50,0.088
674.00,0.088
674.50,0.088
675.00,0.087
675.50,0.087
676.00,0.087
676.50,0.087
677.00,0.086
677.50,0.086
678.00,0.086
678.50,0.086
679.00,0.085
679.50,0.085
680.00,0.085
680.50,0.084
681.00,0.084
681.50,0.084
682.00,0.084
682.50,0.083
683.00,0.083
683.50,0.083
684.00,0.083
684.50,0.082
685.00,0.082
685.50,0.082
686.00,0.082
686.50,0.081
687.00,0.081
687.50,0.081
688.00,0.081
688.50,0.080
689.00,0.080
689.50,0.080
690.00,0.080
690.50,0.079
691.00,0.079
691.50,0.079
692.00,0.078
692.50,0.078
693.00,0.078
693.50,0.078
694.00,0.077
694.50,0.077
695.00,0.077
695.50,0.077
696.00,0.076
696.50,0.076
697.00,0.076
697.50,0.076
698.00,0.075
698.50,0.075
699.00,0.075
699.50,0.075
700.00,0.074
700.50,0.074
701.00,0.074
701.50,0.073
702.00,0.073
702.50,0.073
703.00,0.073
703.50,0.073
704.00,0.072
704.50,0.072
705.00,0.072
705.50,0.072
706.00,0.071
706.50,0.071
707.00,0.071
707.50,0.071
708.00,0.071
708.50,0.070
709.00,0.070
709.50,0.070
710.00,0.070
710.50,0.070
711.00,0.069
711.50,0.069
712.00,0.069
712.50,0.069
713.00,0.069
713.50,0.069
714.00,0.068
714.50,0.068
715.00,0.068
715.50,0.068
716.00,0.068
716.50,0.068
717.00,0.068
717.50,0.068
718.00,0.068
718.50,0.068
719.00,0.068
719.50,0.067
720.00,0.067
720.50,0.067
721.00,0.067
721.50,0.067
722.00,0.067
722.50,0.067
723.00,0.067
723.50,0.067
724.00,0.067
724.50,0.067
725.00,0.067
725.50,0.067
726.00,0.067
726.50,0.067
727.00,0.067
727.50,0.067
728.00,0.066
728.50,0.066
729.00,0.066
729.50,0.066
730.00,0.066
730.50,0.066
731.00,0.066
731.50,0.066
732.00,0.066
732.50,0.066
733.00,0.066
733.50,0.066
734.00,0.066
734.50,0.066
735.00,0.066
735.50,0.066
736.00,0.066
736.50,0.066
737.00,0.066
737.50,0.066
738.00,0.066
738.50,0.066
739.00,0.066
739.50,0.066
740.00,0.066
740.50,0.066
741.00,0.066
741.50,0.066
742.00,0.066
742.50,0.066
743.00,0.066
743.50,0.066
744.00,0.066
744.50,0.065
745.00,0.065
745.50,0.065
746.00,0.065
746.50,0.065
747.00,0.065
747.50,0.065
748.00,0.065
748.50,0.065
749.00,0.065
749.50,0.065
750.00,0.065
750.50,0.065
751.00,0.065
751.50,0.065
752.00,0.065
752.50,0.064
753.00,0.064
753.50,0.064
754.00,0.064
754.50,0.064
755.00,0.064
755.50,0.064
756.00,0.064
756.50,0.064
757.00,0.064
757.50,0.064
758.00,0.064
758.50,0.064
759.00,0.064
759.50,0.064
760.00,0.064
760.50,0.064
761.00,0.064
761.50,0.064
762.00,0.064
762.50,0.064
763.00,0.064
763.50,0.064
764.00,0.064
764.50,0.063
765.00,0.063
765.50,0.063
766.00,0.063
766.50,0.063
767.00,0.063
767.50,0.063
768.00,0.063
768.50,0.063
769.00,0.063
769.50,0.063
770.00,0.063
770.50,0.063
771.00,0.063
771.50,0.063
772.00,0.063
772.50,0.063
773.00,0.062
773.50,0.062
774.00,0.062
774.50,0.062
775.00,0.062
775.50,0.062
776.00,0.062
776.50,0.062
777.00,0.062
777.50,0.062
778.00,0.062
778.50,0.062
779.00,0.062
779.50,0.062
780.00,0.062
780.50,0.062
781.00,0.062
781.50,0.062
782.00,0.062
782.50,0.062
783.00,0.062
783.50,0.062
784.00,0.062
784.50,0.062
785.00,0.062
785.50,0.062
786.00,0.062
786.50,0.062
787.00,0.062
787.50,0.062
788.00,0.062
788.50,0.062
789.00,0.062
789.50,0.062
790.00,0.062
790.50,0.062
791.00,0.062
791.50,0.062
792.00,0.062
792.50,0.062
793.00,0.062
793.50,0.062
794.00,0.062
794.50,0.062
795.00,0.062
795.50,0.062
796.00,0.062
796.50,0.062
797.00,0.062
797.50,0.062
798.00,0.062
798.50,0.062
799.00,0.062
799.50,0.062
800.00,0.062
800.50,0.062
801.00,0.062
801.50,0.062
802.00,0.062
802.50,0.062
803.00,0.062
803.50,0.062
804.00,0.062
804.50,0.062
805.00,0.063
805.50,0.063
806.00,0.063
806.50,0.063
807.00,0.063
807.50,0.063
808.00,0.063
808.50,0.063
809.00,0.063
809.50,0.063
810.00,0.063
810.50,0.063
811.00,0.063
811.50,0.063
812.00,0.063
812.50,0.063
813.00,0.064
813.50,0.064
814.00,0.064
814.50,0.064
815.00,0.064
815.50,0.064
816.00,0.064
816.50,0.064
817.00,0.064
817.50,0.064
818.00,0.064
818.50,0.064
819.00,0.065
819.50,0.065
820.00,0.065
820.50,0.065
821.00,0.065
821.50,0.065
822.00,0.065
822.50,0.065
823.00,0.065
823.50,0.065
824.00,0.065
824.50,0.066
825.00,0.066
825.50,0.066
826.00,0.066
826.50,0.066
827.00,0.066
827.50,0.066
828.00,0.066
828.50,0.066
829.00,0.067
829.50,0.067
830.00,0.067
830.50,0.067
831.00,0.067
831.50,0.067
832.00,0.067
832.50,0.067
833.00,0.068
833.50,0.068
834.00,0.068
834.50,0.068
835.00,0.068
835.50,0.068
836.00,0.068
836.50,0.068
837.00,0.068
837.50,0.068
838.00,0.069
838.50,0.069
839.00,0.069
839.50,0.069
840.00,0.069
840.50,0.069
841.00,0.069
841.50,0.069
842.00,0.069
842.50,0.069
843.00,0.070
843.50,0.070
844.00,0.070
844.50,0.070
845.00,0.070
845.50,0.070
846.00,0.070
846.50,0.070
847.00,0.070
847.50,0.071
848.00,0.071
848.50,0.071
849.00,0.071
849.50,0.071
850.00,0.071
850.50,0.071
851.00,0.072
851.50,0.072
852.00,0.072
852.50,0.072
853.00,0.072
853.50,0.072
854.00,0.073
854.50,0.073
855.00,0.073
855.50,0.073
856.00,0.073
856.50,0.073
857.00,0.073
857.50,0.074
858.00,0.074
858.50,0.074
859.00,0.075
859.50,0.075
860.00,0.075
860.50,0.075
861.00,0.075
861.50,0.075
862.00,0.075
862.50,0.076
863.00,0.076
863.50,0.076
864.00,0.077
864.50,0.077
865.00,0.077
865.50,0.077
866.00,0.077
866.50,0.077
867.00,0.078
867.50,0.078
868.00,0.078
868.50,0.079
869.00,0.079
869.50,0.079
870.00,0.079
870.50,0.080
871.00,0.080
871.50,0.080
872.00,0.081
872.50,0.081
873.00,0.081
873.50,0.082
874.00,0.082
874.50,0.082
875.00,0.082
875.50,0.082
876.00,0.083
876.50,0.083
877.00,0.082
877.50,0.083
878.00,0.083
878.50,0.084
879.00,0.084
879.50,0.083
880.00,0.083
880.50,0.083
881.00,0.083
881.50,0.083
882.00,0.083
882.50,0.083
883.00,0.083
883.50,0.083
884.00,0.083
884.50,0.083
885.00,0.083
885.50,0.082
886.00,0.082
886.50,0.082
887.00,0.082
887.50,0.082
888.00,0.082
888.50,0.082
889.00,0.082
889.50,0.082
890.00,0.082
890.50,0.082
891.00,0.083
891.50,0.083
892.00,0.083
892.50,0.083
893.00,0.082
893.50,0.083
894.00,0.083
894.50,0.083
895.00,0.083
895.50,0.083
896.00,0.083
896.50,0.083
897.00,0.083
897.50,0.082
898.00,0.082
898.50,0.081
899.00,0.082
899.50,0.082
900.00,0.082
900.50,0.081
901.00,0.081
901.50,0.081
902.00,0.081
902.50,0.080
903.00,0.080
903.50,0.081
904.00,0.082
904.50,0.082
905.00,0.083
905.50,0.084
906.00,0.083
906.50,0.082
907.00,0.081
907.50,0.082
908.00,0.082
908.50,0.082
909.00,0.082
909.50,0.083
910.00,0.082
910.50,0.082
911.00,0.082
911.50,0.083
912.00,0.082
912.50,0.082
913.00,0.083
913.50,0.083
914.00,0.084
914.50,0.083
915.00,0.081
915.50,0.082
916.00,0.081
916.50,0.081
917.00,0.081
917.50,0.081
918.00,0.083
918.50,0.084
919.00,0.083
919.50,0.082
920.00,0.080
920.50,0.080
921.00,0.081
921.50,0.080
922.00,0.081
922.50,0.082
923.00,0.080
923.50,0.079
924.00,0.078
924.50,0.078
925.00,0.078
925.50,0.078
926.00,0.077
926.50,0.077
927.00,0.077
927.50,0.078
928.00,0.078
928.50,0.078
929.00,0.080
929.50,0.079
930.00,0.078
930.50,0.078
931.00,0.078
931.50,0.076
932.00,0.075
932.50,0.076
933.00,0.076
933.50,0.076
934.00,0.078
934.50,0.077
935.00,0.076
935.50,0.078
936.00,0.081
936.50,0.080
937.00,0.079
937.50,0.080
938.00,0.080
938.50,0.079
939.00,0.078
939.50,0.078
940.00,0.079
940.50,0.079
941.00,0.079
941.50,0.079
942.00,0.078
942.50,0.075
943.00,0.074
943.50,0.074
944.00,0.075
944.50,0.076
945.00,0.077
945.50,0.077
946.00,0.076
946.50,0.078
947.00,0.079
947.50,0.076
948.00,0.075
948.50,0.075
949.00,0.074
949.50,0.075
950.00,0.076
950.50,0.076
951.00,0.077
951.50,0.076
952.00,0.073
952.50,0.073
953.00,0.075
953.50,0.076
954.00,0.075
954.50,0.075
955.00,0.075
955.50,0.075
956.00,0.076
956.50,0.075
957.00,0.076
957.50,0.076
958.00,0.074
958.50,0.075
959.00,0.077
959.50,0.076
960.00,0.076
960.50,0.075
961.00,0.077
961.50,0.079
962.00,0.080
962.50,0.080
963.00,0.079
963.50,0.078
964.00,0.077
964.50,0.076
965.00,0.076
965.50,0.077
966.00,0.079
966.50,0.077
967.00,0.078
967.50,0.080
968.00,0.081
968.50,0.081
969.00,0.079
969.50,0.078
970.00,0.078
970.50,0.080
971.00,0.081
971.50,0.082
972.00,0.083
972.50,0.082
973.00,0.082
973.50,0.081
974.00,0.081
974.50,0.080
975.00,0.079
975.50,0.082
976.00,0.086
976.50,0.086
977.00,0.086
977.50,0.087
978.00,0.086
978.50,0.086
979.00,0.086
979.50,0.085
980.00,0.086
980.50,0.086
981.00,0.087
981.50,0.090
982.00,0.094
982.50,0.093
983.00,0.096
983.50,0.099
984.00,0.098
984.50,0.098
985.00,0.095
985.50,0.091
986.00,0.090
986.50,0.090
987.00,0.088
987.50,0.087
988.00,0.086
988.50,0.085
989.00,0.088
989.50,0.090
990.00,0.093
990.50,0.097
991.00,0.096
991.50,0.097
992.00,0.098
992.50,0.096
993.00,0.094
993.50,0.091
994.00,0.092
994.50,0.093
995.00,0.089
995.50,0.086
996.00,0.090
996.50,0.090
997.00,0.089
997.50,0.090
998.00,0.091
998.50,0.092
999.00,0.092
999.50,0.094
1000.00,0.092
1000.50,0.089
1001.00,0.091
1001.50,0.092
1002.00,0.088
1002.50,0.086
1003.00,0.088
1003.50,0.088
1004.00,0.090
1004.50,0.089
1005.00,0.085
1005.50,0.087
1006.00,0.089
1006.50,0.089
1007.00,0.088
1007.50,0.089
1008.00,0.091
1008.50,0.092
1009.00,0.089
1009.50,0.082
1010.00,0.081
1010.50,0.082
1011.00,0.084
1011.50,0.085
1012.00,0.082
1012.50,0.077
1013.00,0.078
1013.50,0.081
1014.00,0.084
1014.50,0.084
1015.00,0.085
1015.50,0.089
1016.00,0.085
1016.50,0.083
1017.00,0.082
1017.50,0.078
1018.00,0.077
1018.50,0.080
1019.00,0.082
1019.50,0.078
1020.00,0.078
1020.50,0.082
1021.00,0.079
1021.50,0.072
1022.00,0.071
1022.50,0.070
1023.00,0.069
1023.50,0.072
1024.00,0.078
1024.50,0.081
1025.00,0.075
1025.50,0.072
1026.00,0.071
1026.50,0.068
1027.00,0.068
1027.50,0.071
1028.00,0.077
1028.50,0.079
1029.00,0.078
1029.50,0.078
1030.00,0.077
1030.50,0.075
1031.00,0.074
1031.50,0.074
1032.00,0.071
1032.50,0.068
1033.00,0.070
1033.50,0.073
1034.00,0.074
1034.50,0.072
1035.00,0.071
1035.50,0.072
1036.00,0.070
1036.50,0.068
1037.00,0.069
1037.50,0.066
1038.00,0.066
1038.50,0.071
1039.00,0.070
1039.50,0.072
1040.00,0.075
1040.50,0.078
1041.00,0.077
1041.50,0.074
1042.00,0.073
1042.50,0.071
1043.00,0.072
1043.50,0.072
1044.00,0.070
1044.50,0.066
1045.00,0.066
1045.50,0.070
1046.00,0.071
1046.50,0.071
1047.00,0.070
1047.50,0.070
1048.00,0.069
1048.50,0.068
1049.00,0.069
1049.50,0.066
1050.00,0.067
1050.50,0.073
1051.00,0.078
1051.50,0.080
1052.00,0.072
1052.50,0.069
1053.00,0.069
1053.50,0.066
1054.00,0.064
1054.50,0.063
1055.00,0.064
1055.50,0.063
1056.00,0.060
1056.50,0.060
1057.00,0.066
1057.50,0.066
1058.00,0.066
1058.50,0.065
1059.00,0.063
1059.50,0.061
1060.00,0.062
1060.50,0.067
1061.00,0.068
1061.50,0.063
1062.00,0.062
1062.50,0.066
1063.00,0.063
1063.50,0.058
1064.00,0.063
1064.50,0.065
1065.00,0.064
1065.50,0.068
1066.00,0.069
1066.50,0.069
1067.00,0.065
1067.50,0.062
1068.00,0.065
1068.50,0.067
1069.00,0.068
1069.50,0.074
1070.00,0.076
1070.50,0.071
1071.00,0.070
1071.50,0.072
1072.00,0.075
1072.50,0.076
1073.00,0.071
1073.50,0.067
1074.00,0.060
1074.50,0.057
1075.00,0.059
1075.50,0.059
1076.00,0.058
1076.50,0.058
1077.00,0.057
1077.50,0.059
1078.00,0.058
1078.50,0.056
1079.00,0.059
1079.50,0.062
1080.00,0.063
1080.50,0.060
1081.00,0.059
1081.50,0.060
1082.00,0.060
1082.50,0.059
1083.00,0.058
1083.50,0.060
1084.00,0.061
1084.50,0.061
1085.00,0.060
1085.50,0.060
1086.00,0.061
1086.50,0.062
1087.00,0.064
1087.50,0.066
1088.00,0.066
1088.50,0.063
1089.00,0.063
1089.50,0.064
1090.00,0.064
1090.50,0.064
1091.00,0.060
1091.50,0.058
1092.00,0.060
1092.50,0.060
1093.00,0.060
1093.50,0.058
1094.00,0.057
1094.50,0.058
1095.00,0.059
1095.50,0.061
1096.00,0.062
1096.50,0.061
1097.00,0.057
1097.50,0.057
1098.00,0.058
1098.50,0.060
1099.00,0.062
1099.50,0.065
1100.00,0.066