File: UV-Vis Nanotubes_04172017/New 12DF.txt
"New 12DF.spc - RawData"
"Wavelength nm.","Abs."
450.00,0.214
450.50,0.214
451.00,0.214
451.50,0.214
452.00,0.214
452.50,0.214
453.00,0.214
453.50,0.215
454.00,0.215
454.50,0.215
455.00,0.215
455.50,0.216
456.00,0.216
456.50,0.216
457.00,0.217
457.50,0.217
458.00,0.217
458.50,0.218
459.00,0.218
459.50,0.219
460.00,0.219
460.50,0.219
461.00,0.220
461.50,0.220
462.00,0.220
462.50,0.221
463.00,0.221
463.50,0.221
464.00,0.222
464.50,0.222
465.00,0.222
465.50,0.222
466.00,0.222
466.50,0.223
467.00,0.223
467.50,0.223
468.00,0.223
468.50,0.223
469.00,0.222
469.50,0.222
470.00,0.222
470.50,0.222
471.00,0.221
471.50,0.221
472.00,0.221
472.50,0.220
473.00,0.220
473.50,0.219
474.00,0.218
474.50,0.218
475.00,0.217
475.50,0.216
476.00,0.216
476.50,0.215
477.00,0.214
477.50,0.213
478.00,0.212
478.50,0.212
479.00,0.211
479.50,0.210
480.00,0.209
480.50,0.208
481.00,0.207
481.50,0.207
482.00,0.206
482.50,0.205
483.00,0.204
483.50,0.203
484.00,0.203
484.50,0.202
485.00,0.201
485.50,0.200
486.00,0.200
486.50,0.199
487.00,0.198
487.50,0.198
488.00,0.197
488.50,0.197
489.00,0.196
489.50,0.196
490.00,0.196
490.50,0.195
491.00,0.195
491.50,0.195
492.00,0.194
492.50,0.194
493.00,0.194
493.50,0.194
494.00,0.194
494.50,0.194
495.00,0.194
495.50,0.194
496.00,0.194
496.50,0.194
497.00,0.194
497.50,0.194
498.00,0.194
498.50,0.194
499.00,0.194
499.50,0.194
500.00,0.195
500.50,0.195
501.00,0.195
501.50,0.195
502.00,0.196
502.50,0.196
503.00,0.196
503.50,0.197
504.00,0.197
504.50,0.197
505.00,0.198
505.50,0.198
506.00,0.199
506.50,0.199
507.00,0.199
507.50,0.199
508.00,0.200
508.50,0.200
509.00,0.200
509.50,0.201
510.00,0.201
510.50,0.201
511.00,0.201
511.50,0.201
512.00,0.201
512.50,0.202
513.00,0.202
513.50,0.202
514.00,0.202
514.50,0.202
515.00,0.202
515.50,0.202
516.00,0.202
516.50,0.202
517.00,0.202
517.50,0.202
518.00,0.202
518.50,0.202
519.00,0.202
519.50,0.201
520.00,0.201
520.50,0.201
521.00,0.201
521.50,0.201
522.00,0.201
522.50,0.201
523.00,0.200
523.50,0.200
524.00,0.200
524.50,0.200
525.00,0.199
525.50,0.199
526.00,0.199
526.50,0.199
527.00,0.198
527.50,0.198
528.00,0.198
528.50,0.197
529.00,0.197
529.50,0.197
530.00,0.196
530.50,0.196
531.00,0.196
531.50,0.196
532.00,0.195
532.50,0.195
533.00,0.195
533.50,0.194
534.00,0.194
534.50,0.194
535.00,0.194
535.50,0.194
536.00,0.193
536.50,0.193
537.00,0.193
537.50,0.193
538.00,0.193
538.50,0.193
539.00,0.192
539.50,0.192
540.00,0.192
540.50,0.192
541.00,0.192
541.50,0.192
542.00,0.192
542.50,0.192
543.00,0.192
543.50,0.192
544.00,0.192
544.50,0.192
545.00,0.193
545.50,0.193
546.00,0.193
546.50,0.193
547.00,0.194
547.50,0.194
548.00,0.194
548.50,0.194
549.00,0.195
549.50,0.195
550.00,0.196
550.50,0.196
551.00,0.197
551.50,0.197
552.00,0.198
552.50,0.198
553.00,0.199
553.50,0.199
554.00,0.200
554.50,0.201
555.00,0.202
555.50,0.202
556.00,0.203
556.50,0.204
557.00,0.205
557.50,0.206
558.00,0.207
558.50,0.208
559.00,0.209
559.50,0.210
560.00,0.211
560.50,0.213
561.00,0.214
561.50,0.215
562.00,0.217
562.50,0.218
563.00,0.219
563.50,0.221
564.00,0.222
564.50,0.223
565.00,0.225
565.50,0.226
566.00,0.227
566.50,0.229
567.00,0.230
567.50,0.231
568.00,0.232
568.50,0.233
569.00,0.234
569.50,0.235
570.00,0.236
570.50,0.237
571.00,0.238
571.50,0.239
572.00,0.239
572.50,0.240
573.00,0.241
573.50,0.241
574.00,0.242
574.50,0.242
575.00,0.243
575.50,0.243
576.00,0.244
576.50,0.244
577.00,0.245
577.50,0.245
578.00,0.246
578.50,0.246
579.00,0.246
579.50,0.247
580.00,0.247
580.50,0.247
581.00,0.247
581.50,0.248
582.00,0.248
582.50,0.248
583.00,0.248
583.50,0.248
584.00,0.248
584.50,0.248
585.00,0.248
585.50,0.248
586.00,0.247
586.50,0.247
587.00,0.247
587.50,0.247
588.00,0.246
588.50,0.246
589.00,0.245
589.50,0.245
590.00,0.244
590.50,0.244
591.00,0.243
591.50,0.242
592.00,0.242
592.50,0.241
593.00,0.240
593.50,0.239
594.00,0.239
594.50,0.238
595.00,0.237
595.50,0.236
596.00,0.235
596.50,0.234
597.00,0.233
597.50,0.232
598.00,0.231
598.50,0.230
599.00,0.229
599.50,0.228
600.00,0.227
600.50,0.226
601.00,0.225
601.50,0.224
602.00,0.223
602.50,0.222
603.00,0.221
603.50,0.219
604.00,0.218
604.50,0.217
605.00,0.216
605.50,0.215
606.00,0.214
606.50,0.213
607.00,0.212
607.50,0.211
608.00,0.210
608.50,0.209
609.00,0.208
609.50,0.207
610.00,0.206
610.50,0.205
611.00,0.204
611.50,0.203
612.00,0.202
612.50,0.201
613.00,0.200
613.50,0.199
614.00,0.198
614.50,0.197
615.00,0.196
615.50,0.195
616.00,0.194
616.50,0.193
617.00,0.192
617.50,0.191
618.00,0.191
618.50,0.190
619.00,0.189
619.50,0.188
620.00,0.187
620.50,0.187
621.00,0.186
621.50,0.185
622.00,0.185
622.50,0.184
623.00,0.183
623.50,0.183
624.00,0.182
624.50,0.182
625.00,0.181
625.50,0.180
626.00,0.180
626.50,0.179
627.00,0.179
627.50,0.179
628.00,0.178
628.50,0.178
629.00,0.177
629.50,0.177
630.00,0.177
630.50,0.176
631.00,0.176
631.50,0.176
632.00,0.176
632.50,0.176
633.00,0.175
633.50,0.175
634.00,0.175
634.50,0.175
635.00,0.175
635.50,0.175
636.00,0.175
636.50,0.175
637.00,0.175
637.50,0.175
638.00,0.175
638.50,0.175
639.00,0.175
639.50,0.175
640.00,0.175
640.50,0.175
641.00,0.176
641.50,0.176
642.00,0.176
642.50,0.176
643.00,0.176
643.50,0.177
644.00,0.177
644.50,0.177
645.00,0.177
645.50,0.177
646.00,0.178
646.50,0.178
647.00,0.178
647.50,0.178
648.00,0.179
648.50,0.179
649.00,0.179
649.50,0.179
650.00,0.180
650.50,0.180
651.00,0.180
651.50,0.180
652.00,0.181
652.50,0.181
653.00,0.181
653.50,0.181
654.00,0.182
654.50,0.182
655.00,0.182
655.50,0.182
656.00,0.183
656.50,0.183
657.00,0.183
657.50,0.184
658.00,0.184
658.50,0.184
659.00,0.184
659.50,0.185
660.00,0.185
660.50,0.185
661.00,0.185
661.50,0.185
662.00,0.186
662.50,0.186
663.00,0.186
663.50,0.186
664.00,0.186
664.50,0.186
665.00,0.186
665.50,0.186
666.00,0.186
666.50,0.186
667.00,0.186
667.50,0.185
668.00,0.185
668.50,0.185
669.00,0.185
669.50,0.184
670.00,0.184
670.50,0.184
671.00,0.183
671.50,0.183
672.00,0.182
672.50,0.182
673.00,0.182
673.50,0.181
674.00,0.181
674.50,0.180
675.00,0.180
675.50,0.179
676.00,0.179
676.50,0.178
677.00,0.178
677.50,0.177
678.00,0.177
678.50,0.176
679.00,0.176
679.50,0.175
680.00,0.175
680.50,0.174
681.00,0.174
681.50,0.173
682.00,0.173
682.50,0.172
683.00,0.172
683.50,0.171
684.00,0.171
684.50,0.170
685.00,0.170
685.50,0.169
686.00,0.169
686.50,0.168
687.00,0.168
687.50,0.167
688.00,0.167
688.50,0.166
689.00,0.166
689.50,0.165
690.00,0.165
690.50,0.164
691.00,0.164
691.50,0.163
692.00,0.162
692.50,0.162
693.00,0.161
693.50,0.161
694.00,0.160
694.50,0.160
695.00,0.159
695.50,0.159
696.00,0.158
696.50,0.158
697.00,0.157
697.50,0.156
698.00,0.156
698.50,0.155
699.00,0.155
699.50,0.154
700.00,0.154
700.50,0.153
701.00,0.153
701.50,0.152
702.00,0.152
702.50,0.151
703.00,0.151
703.50,0.150
704.00,0.150
704.50,0.149
705.00,0.149
705.50,0.148
706.00,0.148
706.50,0.147
707.00,0.147
707.50,0.147
708.00,0.146
708.50,0.146
709.00,0.145
709.50,0.145
710.00,0.145
710.50,0.144
711.00,0.144
711.50,0.144
712.00,0.143
712.50,0.143
713.00,0.143
713.50,0.143
714.00,0.142
714.50,0.142
715.00,0.142
715.50,0.142
716.00,0.141
716.50,0.141
717.00,0.141
717.50,0.141
718.00,0.141
718.50,0.140
719.00,0.140
719.50,0.140
720.00,0.140
720.50,0.140
721.00,0.140
721.50,0.139
722.00,0.139
722.50,0.139
723.00,0.139
723.50,0.139
724.00,0.139
724.50,0.139
725.00,0.139
725.50,0.139
726.00,0.138
726.50,0.138
727.00,0.138
727.50,0.138
728.00,0.138
728.50,0.138
729.00,0.138
729.50,0.138
730.00,0.138
730.50,0.138
731.00,0.138
731.50,0.138
732.00,0.138
732.50,0.138
733.00,0.137
733.50,0.137
734.00,0.137
734.50,0.137
735.00,0.137
735.50,0.137
736.00,0.137
736.50,0.137
737.00,0.137
737.50,0.137
738.00,0.137
738.50,0.137
739.00,0.137
739.50,0.137
740.00,0.136
740.50,0.136
741.00,0.136
741.50,0.136
742.00,0.136
742.50,0.136
743.00,0.136
743.50,0.136
744.00,0.136
744.50,0.136
745.00,0.136
745.50,0.135
746.00,0.135
746.50,0.135
747.00,0.135
747.50,0.135
748.00,0.135
748.50,0.135
749.00,0.135
749.50,0.135
750.00,0.134
750.50,0.134
751.00,0.134
751.50,0.134
752.00,0.134
752.50,0.134
753.00,0.134
753.50,0.134
754.00,0.133
754.50,0.133
755.00,0.133
755.50,0.133
756.00,0.133
756.50,0.133
757.00,0.133
757.50,0.133
758.00,0.133
758.50,0.133
759.00,0.132
759.50,0.132
760.00,0.132
760.50,0.132
761.00,0.132
761.50,0.132
762.00,0.132
762.50,0.132
763.00,0.132
763.50,0.132
764.00,0.131
764.50,0.131
765.00,0.131
765.50,0.131
766.00,0.131
766.50,0.131
767.00,0.131
767.50,0.131
768.00,0.130
768.50,0.130
769.00,0.130
769.50,0.130
770.00,0.130
770.50,0.130
771.00,0.130
771.50,0.130
772.00,0.130
772.50,0.129
773.00,0.129
773.50,0.129
774.00,0.129
774.50,0.129
775.00,0.129
775.50,0.129
776.00,0.129
776.50,0.129
777.00,0.129
777.50,0.128
778.00,0.128
778.50,0.128
779.00,0.128
779.50,0.128
780.00,0.128
780.50,0.128
781.00,0.128
781.50,0.128
782.00,0.128
782.50,0.128
783.00,0.128
783.50,0.128
784.00,0.128
784.50,0.128
785.00,0.127
785.50,0.127
786.00,0.127
786.50,0.127
787.00,0.127
787.50,0.127
788.00,0.127
788.50,0.127
789.00,0.127
789.50,0.127
790.00,0.127
790.50,0.127
791.00,0.127
791.50,0.127
792.00,0.127
792.50,0.127
793.00,0.127
793.50,0.127
794.00,0.127
794.50,0.127
795.00,0.127
795.50,0.127
796.00,0.127
796.50,0.127
797.00,0.127
797.50,0.127
798.00,0.127
798.50,0.127
799.00,0.127
799.50,0.127
800.00,0.127
800.50,0.128
801.00,0.128
801.50,0.128
802.00,0.128
802.50,0.128
803.00,0.128
803.50,0.128
804.00,0.128
804.50,0.128
805.00,0.128
805.50,0.128
806.00,0.128
806.50,0.128
807.00,0.128
807.50,0.129
808.00,0.129
808.50,0.129
809.00,0.129
809.50,0.129
810.00,0.129
810.50,0.129
811.00,0.129
811.50,0.129
812.00,0.130
812.50,0.130
813.00,0.130
813.50,0.130
814.00,0.130
814.50,0.130
815.00,0.130
815.50,0.130
816.00,0.131
816.50,0.131
817.00,0.131
817.50,0.131
818.00,0.131
818.50,0.132
819.00,0.132
819.50,0.132
820.00,0.132
820.50,0.132
821.00,0.132
821.50,0.133
822.00,0.133
822.50,0.133
823.00,0.133
823.50,0.133
824.00,0.134
824.50,0.134
825.00,0.134
825.50,0.134
826.00,0.134
826.50,0.135
827.00,0.135
827.50,0.135
828.00,0.135
828.50,0.136
829.00,0.136
829.50,0.136
830.00,0.136
830.50,0.137
831.00,0.137
831.50,0.137
832.00,0.137
832.50,0.138
833.00,0.138
833.50,0.138
834.00,0.138
834.50,0.139
835.00,0.139
835.50,0.139
836.00,0.139
836.50,0.140
837.00,0.140
837.50,0.140
838.00,0.140
838.50,0.140
839.00,0.141
839.50,0.141
840.00,0.141
840.50,0.141
841.00,0.142
841.50,0.142
842.00,0.142
842.50,0.142
843.00,0.143
843.50,0.143
844.00,0.143
844.50,0.143
845.00,0.143
845.50,0.144
846.00,0.144
846.50,0.144
847.00,0.145
847.50,0.145
848.00,0.145
848.50,0.145
849.00,0.146
849.50,0.146
850.00,0.146
850.50,0.147
851.00,0.147
851.50,0.147
852.00,0.147
852.50,0.148
853.00,0.148
853.50,0.148
854.00,0.149
854.50,0.149
855.00,0.149
855.50,0.149
856.00,0.150
856.50,0.150
857.00,0.151
857.50,0.151
858.00,0.152
858.50,0.152
859.00,0.153
859.50,0.153
860.00,0.153
860.50,0.154
861.00,0.154
861.50,0.154
862.00,0.155
862.50,0.156
863.00,0.156
863.50,0.156
864.00,0.157
864.50,0.158
865.00,0.158
865.50,0.159
866.00,0.159
866.50,0.160
867.00,0.160
867.50,0.161
868.00,0.161
868.50,0.162
869.00,0.163
869.50,0.163
870.00,0.164
870.50,0.164
871.00,0.165
871.50,0.165
872.00,0.166
872.50,0.166
873.00,0.167
873.50,0.167
874.00,0.167
874.50,0.168
875.00,0.168
875.50,0.169
876.00,0.169
876.50,0.168
877.00,0.168
877.50,0.168
878.00,0.169
878.50,0.169
879.00,0.169
879.50,0.169
880.00,0.168
880.50,0.168
881.00,0.167
881.50,0.167
882.00,0.167
882.50,0.167
883.00,0.167
883.50,0.167
884.00,0.167
884.50,0.167
885.00,0.166
885.50,0.166
886.00,0.166
886.50,0.166
887.00,0.165
887.50,0.165
888.00,0.165
888.50,0.165
889.00,0.165
889.50,0.165
890.00,0.166
890.50,0.166
891.00,0.166
891.50,0.167
892.00,0.168
892.50,0.168
893.00,0.167
893.50,0.167
894.00,0.168
894.50,0.168
895.00,0.168
895.50,0.168
896.00,0.168
896.50,0.168
897.00,0.168
897.50,0.168
898.00,0.168
898.50,0.168
899.00,0.168
899.50,0.167
900.00,0.167
900.50,0.167
901.00,0.167
901.50,0.167
902.00,0.167
902.50,0.166
903.00,0.167
903.50,0.168
904.00,0.168
904.50,0.169
905.00,0.170
905.50,0.170
906.00,0.170
906.50,0.170
907.00,0.170
907.50,0.169
908.00,0.169
908.50,0.170
909.00,0.171
909.50,0.171
910.00,0.171
910.50,0.170
911.00,0.171
911.50,0.171
912.00,0.171
912.50,0.171
913.00,0.171
913.50,0.172
914.00,0.172
914.50,0.171
915.00,0.170
915.50,0.169
916.00,0.170
916.50,0.168
917.00,0.166
917.50,0.167
918.00,0.168
918.50,0.168
919.00,0.167
919.50,0.167
920.00,0.166
920.50,0.164
921.00,0.165
921.50,0.165
922.00,0.165
922.50,0.165
923.00,0.164
923.50,0.162
924.00,0.163
924.50,0.162
925.00,0.161
925.50,0.161
926.00,0.161
926.50,0.162
927.00,0.161
927.50,0.160
928.00,0.162
928.50,0.161
929.00,0.161
929.50,0.161
930.00,0.161
930.50,0.162
931.00,0.162
931.50,0.160
932.00,0.159
932.50,0.159
933.00,0.161
933.50,0.163
934.00,0.162
934.50,0.161
935.00,0.161
935.50,0.162
936.00,0.164
936.50,0.164
937.00,0.165
937.50,0.164
938.00,0.164
938.50,0.164
939.00,0.162
939.50,0.163
940.00,0.164
940.50,0.162
941.00,0.160
941.50,0.159
942.00,0.160
942.50,0.160
943.00,0.159
943.50,0.159
944.00,0.160
944.50,0.159
945.00,0.158
945.50,0.159
946.00,0.161
946.50,0.161
947.00,0.161
947.50,0.161
948.00,0.161
948.50,0.160
949.00,0.158
949.50,0.158
950.00,0.161
950.50,0.160
951.00,0.158
951.50,0.158
952.00,0.158
952.50,0.157
953.00,0.155
953.50,0.155
954.00,0.157
954.50,0.157
955.00,0.156
955.50,0.155
956.00,0.158
956.50,0.160
957.00,0.159
957.50,0.158
958.00,0.158
958.50,0.159
959.00,0.157
959.50,0.155
960.00,0.156
960.50,0.154
961.00,0.156
961.50,0.161
962.00,0.161
962.50,0.161
963.00,0.161
963.50,0.161
964.00,0.161
964.50,0.160
965.00,0.159
965.50,0.159
966.00,0.159
966.50,0.160
967.00,0.161
967.50,0.164
968.00,0.165
968.50,0.165
969.00,0.164
969.50,0.163
970.00,0.163
970.50,0.166
971.00,0.168
971.50,0.167
972.00,0.167
972.50,0.169
973.00,0.169
973.50,0.170
974.00,0.170
974.50,0.172
975.00,0.172
975.50,0.173
976.00,0.178
976.50,0.178
977.00,0.175
977.50,0.177
978.00,0.178
978.50,0.175
979.00,0.176
979.50,0.179
980.00,0.179
980.50,0.180
981.00,0.178
981.50,0.179
982.00,0.184
982.50,0.188
983.00,0.191
983.50,0.188
984.00,0.187
984.50,0.188
985.00,0.183
985.50,0.180
986.00,0.181
986.50,0.180
987.00,0.177
987.50,0.177
988.00,0.178
988.50,0.178
989.00,0.178
989.50,0.179
990.00,0.183
990.50,0.185
991.00,0.186
991.50,0.188
992.00,0.186
992.50,0.183
993.00,0.181
993.50,0.178
994.00,0.176
994.50,0.180
995.00,0.182
995.50,0.178
996.00,0.177
996.50,0.179
997.00,0.180
997.50,0.182
998.00,0.179
998.50,0.178
999.00,0.178
999.50,0.176
1000.00,0.178
1000.50,0.177
1001.00,0.177
1001.50,0.176
1002.00,0.175
1002.50,0.177
1003.00,0.178
1003.50,0.179
1004.00,0.177
1004.50,0.180
1005.00,0.176
1005.50,0.170
1006.00,0.173
1006.50,0.175
1007.00,0.173
1007.50,0.172
1008.00,0.174
1008.50,0.171
1009.00,0.170
1009.50,0.171
1010.00,0.170
1010.50,0.171
1011.00,0.173
1011.50,0.173
1012.00,0.166
1012.50,0.160
1013.00,0.160
1013.50,0.164
1014.00,0.166
1014.50,0.168
1015.00,0.171
1015.50,0.168
1016.00,0.165
1016.50,0.162
1017.00,0.160
1017.50,0.158
1018.00,0.156
1018.50,0.160
1019.00,0.163
1019.50,0.164
1020.00,0.165
1020.50,0.166
1021.00,0.161
1021.50,0.158
1022.00,0.151
1022.50,0.144
1023.00,0.148
1023.50,0.156
1024.00,0.155
1024.50,0.151
1025.00,0.151
1025.50,0.153
1026.00,0.151
1026.50,0.152
1027.00,0.154
1027.50,0.154
1028.00,0.156
1028.50,0.158
1029.00,0.156
1029.50,0.154
1030.00,0.153
1030.50,0.153
1031.00,0.152
1031.50,0.151
1032.00,0.150
1032.50,0.146
1033.00,0.146
1033.50,0.153
1034.00,0.157
1034.50,0.156
1035.00,0.156
1035.50,0.154
1036.00,0.147
1036.50,0.142
1037.00,0.143
1037.50,0.144
1038.00,0.142
1038.50,0.144
1039.00,0.147
1039.50,0.146
1040.00,0.149
1040.50,0.149
1041.00,0.144
1041.50,0.147
1042.00,0.152
1042.50,0.150
1043.00,0.146
1043.50,0.145
1044.00,0.142
1044.50,0.141
1045.00,0.139
1045.50,0.139
1046.00,0.141
1046.50,0.143
1047.00,0.147
1047.50,0.147
1048.00,0.146
1048.50,0.147
1049.00,0.142
1049.50,0.141
1050.00,0.142
1050.50,0.144
1051.00,0.147
1051.50,0.149
1052.00,0.148
1052.50,0.145
1053.00,0.144
1053.50,0.142
1054.00,0.139
1054.50,0.134
1055.00,0.135
1055.50,0.138
1056.00,0.135
1056.50,0.131
1057.00,0.132
1057.50,0.136
1058.00,0.138
1058.50,0.135
1059.00,0.133
1059.50,0.134
1060.00,0.140
1060.50,0.141
1061.00,0.138
1061.50,0.135
1062.00,0.134
1062.50,0.131
1063.00,0.128
1063.50,0.130
1064.00,0.128
1064.50,0.130
1065.00,0.132
1065.50,0.135
1066.00,0.137
1066.50,0.135
1067.00,0.139
1067.50,0.142
1068.00,0.137
1068.50,0.135
1069.00,0.143
1069.50,0.149
1070.00,0.151
1070.50,0.153
1071.00,0.152
1071.50,0.147
1072.00,0.147
1072.50,0.152
1073.00,0.152
1073.50,0.142
1074.00,0.132
1074.50,0.128
1075.00,0.127
1075.50,0.129
1076.00,0.125
1076.50,0.126
1077.00,0.130
1077.50,0.131
1078.00,0.129
1078.50,0.128
1079.00,0.127
1079.50,0.126
1080.00,0.126
1080.50,0.129
1081.00,0.129
1081.50,0.126
1082.00,0.126
1082.50,0.124
1083.00,0.122
1083.50,0.126
1084.00,0.124
1084.50,0.124
1085.00,0.127
1085.50,0.131
1086.00,0.132
1086.50,0.129
1087.00,0.132
1087.50,0.135
1088.00,0.135
1088.50,0.133
1089.00,0.134
1089.50,0.135
1090.00,0.132
1090.50,0.129
1091.00,0.129
1091.50,0.128
1092.00,0.125
1092.50,0.125
1093.00,0.128
1093.50,0.127
1094.00,0.127
1094.50,0.127
1095.00,0.127
1095.50,0.128
1096.00,0.132
1096.50,0.131
1097.00,0.128
1097.50,0.128
1098.00,0.129
1098.50,0.128
1099.00,0.131
1099.50,0.134
1100.00,0.132