File: UV-Vis Nanotubes_04172017/Original 1DF.txt
"Original 1DF.spc - RawData-002"
"Wavelength nm.","Abs."
450.00,
450.50,
451.00,
451.50,
452.00,
452.50,
453.00,
453.50,
454.00,
454.50,
455.00,
455.50,
456.00,
456.50,
457.00,
457.50,
458.00,
458.50,
459.00,
459.50,
460.00,
460.50,
461.00,
461.50,
462.00,
462.50,
463.00,
463.50,
464.00,
464.50,
465.00,
465.50,
466.00,
466.50,
467.00,
467.50,
468.00,
468.50,
469.00,
469.50,
470.00,
470.50,
471.00,
471.50,
472.00,
472.50,
473.00,
473.50,
474.00,
474.50,
475.00,
475.50,
476.00,
476.50,
477.00,
477.50,
478.00,
478.50,
479.00,
479.50,
480.00,
480.50,
481.00,
481.50,
482.00,
482.50,
483.00,
483.50,
484.00,
484.50,
485.00,
485.50,
486.00,
486.50,
487.00,
487.50,
488.00,
488.50,
489.00,
489.50,
490.00,
490.50,
491.00,
491.50,
492.00,
492.50,
493.00,
493.50,
494.00,
494.50,
495.00,
495.50,
496.00,
496.50,
497.00,
497.50,
498.00,
498.50,
499.00,
499.50,
500.00,
500.50,
501.00,
501.50,
502.00,
502.50,
503.00,
503.50,
504.00,
504.50,
505.00,
505.50,
506.00,
506.50,
507.00,
507.50,
508.00,
508.50,
509.00,
509.50,
510.00,
510.50,
511.00,
511.50,
512.00,
512.50,
513.00,
513.50,
514.00,
514.50,
515.00,
515.50,
516.00,
516.50,
517.00,
517.50,
518.00,
518.50,
519.00,
519.50,
520.00,
520.50,
521.00,
521.50,
522.00,
522.50,
523.00,
523.50,
524.00,
524.50,
525.00,
525.50,
526.00,
526.50,
527.00,
527.50,
528.00,
528.50,
529.00,
529.50,
530.00,
530.50,
531.00,
531.50,
532.00,
532.50,
533.00,
533.50,
534.00,
534.50,
535.00,
535.50,
536.00,
536.50,
537.00,
537.50,
538.00,
538.50,
539.00,
539.50,
540.00,
540.50,
541.00,
541.50,
542.00,
542.50,
543.00,
543.50,
544.00,
544.50,
545.00,
545.50,
546.00,
546.50,
547.00,
547.50,
548.00,
548.50,
549.00,
549.50,
550.00,
550.50,
551.00,
551.50,
552.00,
552.50,
553.00,
553.50,
554.00,
554.50,
555.00,
555.50,
556.00,
556.50,
557.00,
557.50,
558.00,
558.50,
559.00,
559.50,
560.00,
560.50,
561.00,
561.50,
562.00,
562.50,
563.00,
563.50,
564.00,
564.50,
565.00,
565.50,
566.00,
566.50,
567.00,
567.50,
568.00,
568.50,
569.00,
569.50,
570.00,
570.50,
571.00,
571.50,
572.00,
572.50,
573.00,
573.50,
574.00,
574.50,
575.00,
575.50,
576.00,
576.50,
577.00,
577.50,
578.00,
578.50,
579.00,
579.50,
580.00,
580.50,
581.00,
581.50,
582.00,
582.50,
583.00,
583.50,
584.00,
584.50,
585.00,
585.50,
586.00,
586.50,
587.00,
587.50,
588.00,
588.50,
589.00,
589.50,
590.00,
590.50,
591.00,
591.50,
592.00,
592.50,
593.00,
593.50,
594.00,
594.50,
595.00,
595.50,
596.00,
596.50,
597.00,
597.50,
598.00,
598.50,
599.00,
599.50,
600.00,
600.50,
601.00,
601.50,
602.00,
602.50,
603.00,
603.50,
604.00,
604.50,
605.00,
605.50,
606.00,
606.50,
607.00,
607.50,
608.00,
608.50,
609.00,
609.50,
610.00,
610.50,
611.00,
611.50,
612.00,
612.50,
613.00,
613.50,
614.00,
614.50,
615.00,
615.50,
616.00,
616.50,
617.00,
617.50,
618.00,
618.50,
619.00,
619.50,
620.00,
620.50,
621.00,
621.50,
622.00,
622.50,
623.00,
623.50,
624.00,
624.50,
625.00,
625.50,
626.00,
626.50,
627.00,
627.50,
628.00,
628.50,
629.00,
629.50,
630.00,
630.50,
631.00,
631.50,
632.00,
632.50,
633.00,
633.50,
634.00,
634.50,
635.00,
635.50,
636.00,
636.50,
637.00,
637.50,
638.00,
638.50,
639.00,
639.50,
640.00,
640.50,
641.00,
641.50,
642.00,
642.50,
643.00,
643.50,
644.00,
644.50,
645.00,
645.50,
646.00,
646.50,
647.00,
647.50,
648.00,
648.50,
649.00,
649.50,
650.00,
650.50,
651.00,
651.50,
652.00,
652.50,
653.00,
653.50,
654.00,
654.50,
655.00,
655.50,
656.00,
656.50,
657.00,
657.50,
658.00,
658.50,
659.00,
659.50,
660.00,
660.50,
661.00,
661.50,
662.00,
662.50,
663.00,
663.50,
664.00,
664.50,
665.00,
665.50,
666.00,
666.50,
667.00,
667.50,
668.00,
668.50,
669.00,
669.50,
670.00,
670.50,
671.00,
671.50,
672.00,
672.50,
673.00,
673.50,
674.00,
674.50,
675.00,
675.50,
676.00,
676.50,
677.00,
677.50,
678.00,
678.50,
679.00,
679.50,
680.00,
680.50,
681.00,
681.50,
682.00,
682.50,
683.00,
683.50,
684.00,
684.50,
685.00,
685.50,
686.00,
686.50,
687.00,
687.50,
688.00,
688.50,
689.00,
689.50,
690.00,
690.50,
691.00,
691.50,
692.00,
692.50,
693.00,
693.50,
694.00,
694.50,
695.00,
695.50,
696.00,
696.50,
697.00,
697.50,
698.00,
698.50,
699.00,
699.50,
700.00,
700.50,
701.00,
701.50,
702.00,
702.50,
703.00,
703.50,
704.00,
704.50,
705.00,
705.50,
706.00,
706.50,
707.00,
707.50,
708.00,
708.50,
709.00,
709.50,
710.00,
710.50,
711.00,
711.50,
712.00,
712.50,
713.00,
713.50,
714.00,
714.50,
715.00,
715.50,
716.00,
716.50,
717.00,
717.50,
718.00,
718.50,
719.00,
719.50,
720.00,
720.50,
721.00,
721.50,
722.00,
722.50,
723.00,
723.50,
724.00,
724.50,
725.00,
725.50,
726.00,
726.50,
727.00,
727.50,
728.00,
728.50,
729.00,
729.50,
730.00,
730.50,
731.00,
731.50,
732.00,
732.50,
733.00,
733.50,
734.00,
734.50,
735.00,
735.50,
736.00,
736.50,
737.00,
737.50,
738.00,
738.50,
739.00,
739.50,
740.00,
740.50,
741.00,
741.50,
742.00,
742.50,
743.00,
743.50,
744.00,
744.50,
745.00,
745.50,
746.00,
746.50,
747.00,
747.50,
748.00,
748.50,
749.00,
749.50,
750.00,
750.50,
751.00,
751.50,
752.00,
752.50,
753.00,
753.50,
754.00,
754.50,
755.00,
755.50,
756.00,
756.50,
757.00,
757.50,
758.00,
758.50,
759.00,
759.50,
760.00,
760.50,
761.00,
761.50,
762.00,
762.50,
763.00,
763.50,
764.00,
764.50,
765.00,
765.50,
766.00,
766.50,
767.00,
767.50,
768.00,
768.50,
769.00,
769.50,
770.00,
770.50,
771.00,
771.50,
772.00,
772.50,
773.00,
773.50,
774.00,
774.50,
775.00,
775.50,
776.00,
776.50,
777.00,
777.50,
778.00,
778.50,
779.00,
779.50,
780.00,
780.50,
781.00,
781.50,
782.00,
782.50,
783.00,
783.50,
784.00,
784.50,
785.00,
785.50,
786.00,
786.50,
787.00,
787.50,
788.00,
788.50,
789.00,
789.50,
790.00,
790.50,
791.00,
791.50,
792.00,
792.50,
793.00,
793.50,
794.00,
794.50,
795.00,
795.50,
796.00,
796.50,
797.00,
797.50,
798.00,
798.50,
799.00,
799.50,
800.00,
800.50,
801.00,
801.50,
802.00,
802.50,
803.00,
803.50,
804.00,
804.50,
805.00,
805.50,
806.00,
806.50,
807.00,
807.50,
808.00,
808.50,
809.00,
809.50,
810.00,
810.50,
811.00,
811.50,
812.00,
812.50,
813.00,
813.50,
814.00,
814.50,
815.00,
815.50,
816.00,
816.50,
817.00,
817.50,
818.00,
818.50,
819.00,
819.50,
820.00,
820.50,
821.00,
821.50,
822.00,
822.50,
823.00,
823.50,
824.00,
824.50,
825.00,
825.50,
826.00,
826.50,
827.00,
827.50,
828.00,
828.50,
829.00,
829.50,
830.00,
830.50,
831.00,
831.50,
832.00,
832.50,
833.00,
833.50,
834.00,
834.50,
835.00,
835.50,
836.00,
836.50,
837.00,
837.50,
838.00,
838.50,
839.00,
839.50,
840.00,
840.50,
841.00,
841.50,
842.00,
842.50,
843.00,
843.50,
844.00,
844.50,
845.00,
845.50,
846.00,
846.50,
847.00,
847.50,
848.00,
848.50,
849.00,
849.50,
850.00,
850.50,
851.00,
851.50,
852.00,
852.50,
853.00,
853.50,
854.00,
854.50,
855.00,
855.50,
856.00,
856.50,
857.00,
857.50,
858.00,
858.50,
859.00,
859.50,
860.00,
860.50,
861.00,
861.50,
862.00,
862.50,
863.00,
863.50,
864.00,
864.50,
865.00,
865.50,
866.00,
866.50,
867.00,
867.50,
868.00,
868.50,
869.00,
869.50,
870.00,
870.50,
871.00,
871.50,
872.00,
872.50,
873.00,
873.50,
874.00,
874.50,
875.00,
875.50,
876.00,
876.50,
877.00,
877.50,
878.00,
878.50,
879.00,
879.50,
880.00,
880.50,
881.00,
881.50,
882.00,
882.50,
883.00,
883.50,
884.00,
884.50,
885.00,
885.50,
886.00,
886.50,
887.00,
887.50,
888.00,
888.50,
889.00,
889.50,
890.00,
890.50,
891.00,
891.50,
892.00,
892.50,
893.00,
893.50,
894.00,
894.50,
895.00,
895.50,
896.00,
896.50,
897.00,
897.50,
898.00,
898.50,
899.00,
899.50,
900.00,
900.50,
901.00,
901.50,
902.00,
902.50,
903.00,
903.50,
904.00,
904.50,
905.00,
905.50,
906.00,
906.50,
907.00,
907.50,
908.00,
908.50,
909.00,
909.50,
910.00,
910.50,
911.00,
911.50,
912.00,
912.50,
913.00,
913.50,
914.00,
914.50,
915.00,
915.50,
916.00,
916.50,
917.00,
917.50,
918.00,
918.50,
919.00,
919.50,
920.00,
920.50,
921.00,
921.50,
922.00,
922.50,
923.00,
923.50,
924.00,
924.50,
925.00,
925.50,
926.00,
926.50,
927.00,
927.50,
928.00,
928.50,
929.00,
929.50,
930.00,
930.50,
931.00,
931.50,
932.00,
932.50,
933.00,
933.50,
934.00,
934.50,
935.00,
935.50,
936.00,
936.50,
937.00,
937.50,
938.00,
938.50,
939.00,
939.50,
940.00,
940.50,
941.00,
941.50,
942.00,
942.50,
943.00,
943.50,
944.00,
944.50,
945.00,
945.50,
946.00,
946.50,
947.00,
947.50,
948.00,
948.50,
949.00,
949.50,
950.00,
950.50,
951.00,
951.50,
952.00,
952.50,
953.00,
953.50,
954.00,
954.50,
955.00,
955.50,
956.00,
956.50,
957.00,
957.50,
958.00,
958.50,
959.00,
959.50,
960.00,
960.50,
961.00,
961.50,
962.00,
962.50,
963.00,
963.50,
964.00,
964.50,
965.00,
965.50,
966.00,
966.50,
967.00,
967.50,
968.00,
968.50,
969.00,
969.50,
970.00,
970.50,
971.00,
971.50,
972.00,
972.50,
973.00,
973.50,
974.00,
974.50,
975.00,
975.50,
976.00,
976.50,
977.00,
977.50,
978.00,
978.50,
979.00,
979.50,
980.00,
980.50,
981.00,
981.50,
982.00,
982.50,
983.00,
983.50,
984.00,
984.50,
985.00,
985.50,
986.00,
986.50,
987.00,
987.50,
988.00,
988.50,
989.00,
989.50,
990.00,
990.50,
991.00,
991.50,
992.00,
992.50,
993.00,
993.50,
994.00,
994.50,
995.00,
995.50,
996.00,
996.50,
997.00,
997.50,
998.00,
998.50,
999.00,
999.50,
1000.00,
1000.50,
1001.00,
1001.50,
1002.00,
1002.50,
1003.00,
1003.50,
1004.00,
1004.50,
1005.00,
1005.50,
1006.00,
1006.50,
1007.00,
1007.50,
1008.00,
1008.50,
1009.00,
1009.50,
1010.00,
1010.50,
1011.00,
1011.50,
1012.00,
1012.50,
1013.00,
1013.50,
1014.00,
1014.50,
1015.00,
1015.50,
1016.00,
1016.50,
1017.00,
1017.50,
1018.00,
1018.50,
1019.00,
1019.50,
1020.00,
1020.50,
1021.00,
1021.50,
1022.00,
1022.50,
1023.00,
1023.50,
1024.00,
1024.50,
1025.00,
1025.50,
1026.00,
1026.50,
1027.00,
1027.50,
1028.00,
1028.50,
1029.00,
1029.50,
1030.00,
1030.50,
1031.00,
1031.50,
1032.00,
1032.50,
1033.00,
1033.50,
1034.00,
1034.50,
1035.00,
1035.50,
1036.00,
1036.50,
1037.00,
1037.50,
1038.00,
1038.50,
1039.00,
1039.50,
1040.00,
1040.50,
1041.00,
1041.50,
1042.00,
1042.50,
1043.00,
1043.50,
1044.00,
1044.50,
1045.00,
1045.50,
1046.00,
1046.50,
1047.00,
1047.50,
1048.00,
1048.50,
1049.00,
1049.50,
1050.00,
1050.50,
1051.00,
1051.50,
1052.00,
1052.50,
1053.00,
1053.50,
1054.00,
1054.50,
1055.00,
1055.50,
1056.00,
1056.50,
1057.00,
1057.50,
1058.00,
1058.50,
1059.00,
1059.50,
1060.00,
1060.50,
1061.00,
1061.50,
1062.00,
1062.50,
1063.00,
1063.50,
1064.00,
1064.50,
1065.00,
1065.50,
1066.00,
1066.50,
1067.00,
1067.50,
1068.00,
1068.50,
1069.00,
1069.50,
1070.00,
1070.50,
1071.00,
1071.50,
1072.00,
1072.50,
1073.00,
1073.50,
1074.00,
1074.50,
1075.00,
1075.50,
1076.00,
1076.50,
1077.00,
1077.50,
1078.00,
1078.50,
1079.00,
1079.50,
1080.00,
1080.50,
1081.00,
1081.50,
1082.00,
1082.50,
1083.00,
1083.50,
1084.00,
1084.50,
1085.00,0.249
1085.50,0.249
1086.00,0.254
1086.50,0.255
1087.00,0.254
1087.50,0.256
1088.00,0.259
1088.50,0.258
1089.00,0.255
1089.50,0.257
1090.00,0.255
1090.50,0.251
1091.00,0.251
1091.50,0.251
1092.00,0.249
1092.50,0.252
1093.00,0.250
1093.50,0.248
1094.00,0.250
1094.50,0.253
1095.00,0.254
1095.50,0.252
1096.00,0.255
1096.50,0.257
1097.00,0.254
1097.50,0.251
1098.00,0.251
1098.50,0.251
1099.00,0.256
1099.50,0.256
1100.00,0.253