File: UV-Vis Nanotubes_04172017/Original 1.5DF.txt
"Original 1.5DF.spc - RawData"
"Wavelength nm.","Abs."
450.00,0.256
450.50,0.256
451.00,0.256
451.50,0.256
452.00,0.256
452.50,0.257
453.00,0.257
453.50,0.257
454.00,0.258
454.50,0.258
455.00,0.258
455.50,0.259
456.00,0.259
456.50,0.260
457.00,0.260
457.50,0.261
458.00,0.261
458.50,0.262
459.00,0.262
459.50,0.262
460.00,0.263
460.50,0.263
461.00,0.264
461.50,0.264
462.00,0.265
462.50,0.265
463.00,0.266
463.50,0.266
464.00,0.267
464.50,0.267
465.00,0.267
465.50,0.267
466.00,0.268
466.50,0.268
467.00,0.268
467.50,0.268
468.00,0.268
468.50,0.268
469.00,0.268
469.50,0.268
470.00,0.267
470.50,0.267
471.00,0.267
471.50,0.266
472.00,0.266
472.50,0.265
473.00,0.264
473.50,0.264
474.00,0.263
474.50,0.262
475.00,0.261
475.50,0.260
476.00,0.259
476.50,0.258
477.00,0.257
477.50,0.256
478.00,0.255
478.50,0.254
479.00,0.253
479.50,0.252
480.00,0.251
480.50,0.250
481.00,0.249
481.50,0.248
482.00,0.247
482.50,0.246
483.00,0.245
483.50,0.244
484.00,0.243
484.50,0.242
485.00,0.241
485.50,0.240
486.00,0.239
486.50,0.238
487.00,0.237
487.50,0.237
488.00,0.236
488.50,0.236
489.00,0.235
489.50,0.235
490.00,0.234
490.50,0.234
491.00,0.233
491.50,0.233
492.00,0.232
492.50,0.232
493.00,0.232
493.50,0.232
494.00,0.231
494.50,0.231
495.00,0.231
495.50,0.231
496.00,0.231
496.50,0.231
497.00,0.231
497.50,0.231
498.00,0.231
498.50,0.232
499.00,0.232
499.50,0.232
500.00,0.232
500.50,0.233
501.00,0.233
501.50,0.233
502.00,0.234
502.50,0.234
503.00,0.234
503.50,0.235
504.00,0.235
504.50,0.236
505.00,0.236
505.50,0.236
506.00,0.237
506.50,0.237
507.00,0.238
507.50,0.238
508.00,0.239
508.50,0.239
509.00,0.240
509.50,0.240
510.00,0.240
510.50,0.241
511.00,0.241
511.50,0.241
512.00,0.242
512.50,0.242
513.00,0.242
513.50,0.243
514.00,0.243
514.50,0.243
515.00,0.243
515.50,0.243
516.00,0.243
516.50,0.243
517.00,0.243
517.50,0.243
518.00,0.243
518.50,0.243
519.00,0.243
519.50,0.243
520.00,0.243
520.50,0.243
521.00,0.243
521.50,0.242
522.00,0.242
522.50,0.242
523.00,0.242
523.50,0.241
524.00,0.241
524.50,0.241
525.00,0.240
525.50,0.240
526.00,0.240
526.50,0.240
527.00,0.239
527.50,0.239
528.00,0.238
528.50,0.238
529.00,0.238
529.50,0.237
530.00,0.237
530.50,0.236
531.00,0.236
531.50,0.236
532.00,0.235
532.50,0.235
533.00,0.234
533.50,0.234
534.00,0.234
534.50,0.233
535.00,0.233
535.50,0.233
536.00,0.232
536.50,0.232
537.00,0.232
537.50,0.232
538.00,0.231
538.50,0.231
539.00,0.231
539.50,0.231
540.00,0.231
540.50,0.231
541.00,0.231
541.50,0.230
542.00,0.230
542.50,0.230
543.00,0.231
543.50,0.231
544.00,0.231
544.50,0.231
545.00,0.231
545.50,0.231
546.00,0.231
546.50,0.232
547.00,0.232
547.50,0.232
548.00,0.232
548.50,0.233
549.00,0.233
549.50,0.234
550.00,0.234
550.50,0.235
551.00,0.235
551.50,0.236
552.00,0.237
552.50,0.237
553.00,0.238
553.50,0.239
554.00,0.240
554.50,0.240
555.00,0.241
555.50,0.242
556.00,0.243
556.50,0.244
557.00,0.246
557.50,0.247
558.00,0.248
558.50,0.249
559.00,0.251
559.50,0.252
560.00,0.253
560.50,0.255
561.00,0.256
561.50,0.258
562.00,0.259
562.50,0.261
563.00,0.263
563.50,0.264
564.00,0.266
564.50,0.268
565.00,0.270
565.50,0.271
566.00,0.273
566.50,0.275
567.00,0.277
567.50,0.279
568.00,0.280
568.50,0.282
569.00,0.284
569.50,0.285
570.00,0.287
570.50,0.288
571.00,0.290
571.50,0.291
572.00,0.292
572.50,0.293
573.00,0.294
573.50,0.295
574.00,0.296
574.50,0.297
575.00,0.298
575.50,0.299
576.00,0.300
576.50,0.300
577.00,0.301
577.50,0.302
578.00,0.302
578.50,0.303
579.00,0.303
579.50,0.303
580.00,0.304
580.50,0.304
581.00,0.304
581.50,0.304
582.00,0.304
582.50,0.304
583.00,0.305
583.50,0.304
584.00,0.304
584.50,0.304
585.00,0.304
585.50,0.304
586.00,0.304
586.50,0.303
587.00,0.303
587.50,0.303
588.00,0.302
588.50,0.302
589.00,0.301
589.50,0.301
590.00,0.300
590.50,0.300
591.00,0.299
591.50,0.298
592.00,0.297
592.50,0.297
593.00,0.296
593.50,0.295
594.00,0.294
594.50,0.293
595.00,0.292
595.50,0.291
596.00,0.290
596.50,0.289
597.00,0.288
597.50,0.287
598.00,0.286
598.50,0.284
599.00,0.283
599.50,0.282
600.00,0.281
600.50,0.279
601.00,0.278
601.50,0.277
602.00,0.275
602.50,0.274
603.00,0.273
603.50,0.271
604.00,0.270
604.50,0.268
605.00,0.267
605.50,0.266
606.00,0.264
606.50,0.263
607.00,0.261
607.50,0.260
608.00,0.258
608.50,0.257
609.00,0.256
609.50,0.254
610.00,0.253
610.50,0.251
611.00,0.250
611.50,0.248
612.00,0.247
612.50,0.245
613.00,0.244
613.50,0.243
614.00,0.241
614.50,0.240
615.00,0.239
615.50,0.238
616.00,0.236
616.50,0.235
617.00,0.234
617.50,0.233
618.00,0.232
618.50,0.231
619.00,0.229
619.50,0.228
620.00,0.227
620.50,0.226
621.00,0.225
621.50,0.224
622.00,0.224
622.50,0.223
623.00,0.222
623.50,0.221
624.00,0.220
624.50,0.219
625.00,0.219
625.50,0.218
626.00,0.217
626.50,0.217
627.00,0.216
627.50,0.215
628.00,0.215
628.50,0.214
629.00,0.214
629.50,0.213
630.00,0.213
630.50,0.213
631.00,0.212
631.50,0.212
632.00,0.212
632.50,0.211
633.00,0.211
633.50,0.211
634.00,0.211
634.50,0.211
635.00,0.211
635.50,0.211
636.00,0.211
636.50,0.211
637.00,0.211
637.50,0.211
638.00,0.211
638.50,0.211
639.00,0.211
639.50,0.211
640.00,0.212
640.50,0.212
641.00,0.212
641.50,0.212
642.00,0.213
642.50,0.213
643.00,0.214
643.50,0.214
644.00,0.214
644.50,0.215
645.00,0.215
645.50,0.216
646.00,0.216
646.50,0.217
647.00,0.217
647.50,0.218
648.00,0.218
648.50,0.219
649.00,0.219
649.50,0.219
650.00,0.220
650.50,0.220
651.00,0.221
651.50,0.221
652.00,0.222
652.50,0.222
653.00,0.222
653.50,0.223
654.00,0.223
654.50,0.224
655.00,0.224
655.50,0.224
656.00,0.225
656.50,0.225
657.00,0.225
657.50,0.225
658.00,0.226
658.50,0.226
659.00,0.226
659.50,0.226
660.00,0.226
660.50,0.227
661.00,0.227
661.50,0.227
662.00,0.227
662.50,0.227
663.00,0.227
663.50,0.227
664.00,0.227
664.50,0.227
665.00,0.227
665.50,0.227
666.00,0.227
666.50,0.227
667.00,0.227
667.50,0.227
668.00,0.227
668.50,0.226
669.00,0.226
669.50,0.226
670.00,0.226
670.50,0.225
671.00,0.225
671.50,0.225
672.00,0.224
672.50,0.224
673.00,0.223
673.50,0.223
674.00,0.223
674.50,0.222
675.00,0.222
675.50,0.221
676.00,0.221
676.50,0.220
677.00,0.219
677.50,0.219
678.00,0.218
678.50,0.218
679.00,0.217
679.50,0.216
680.00,0.216
680.50,0.215
681.00,0.214
681.50,0.214
682.00,0.213
682.50,0.212
683.00,0.212
683.50,0.211
684.00,0.210
684.50,0.210
685.00,0.209
685.50,0.208
686.00,0.208
686.50,0.207
687.00,0.206
687.50,0.206
688.00,0.205
688.50,0.204
689.00,0.204
689.50,0.203
690.00,0.202
690.50,0.201
691.00,0.201
691.50,0.200
692.00,0.199
692.50,0.199
693.00,0.198
693.50,0.197
694.00,0.197
694.50,0.196
695.00,0.195
695.50,0.194
696.00,0.194
696.50,0.193
697.00,0.192
697.50,0.192
698.00,0.191
698.50,0.190
699.00,0.190
699.50,0.189
700.00,0.189
700.50,0.188
701.00,0.187
701.50,0.187
702.00,0.186
702.50,0.186
703.00,0.185
703.50,0.184
704.00,0.184
704.50,0.183
705.00,0.183
705.50,0.182
706.00,0.182
706.50,0.181
707.00,0.181
707.50,0.180
708.00,0.180
708.50,0.180
709.00,0.179
709.50,0.179
710.00,0.178
710.50,0.178
711.00,0.178
711.50,0.177
712.00,0.177
712.50,0.176
713.00,0.176
713.50,0.176
714.00,0.175
714.50,0.175
715.00,0.175
715.50,0.175
716.00,0.174
716.50,0.174
717.00,0.174
717.50,0.174
718.00,0.173
718.50,0.173
719.00,0.173
719.50,0.173
720.00,0.172
720.50,0.172
721.00,0.172
721.50,0.172
722.00,0.172
722.50,0.171
723.00,0.171
723.50,0.171
724.00,0.171
724.50,0.171
725.00,0.171
725.50,0.170
726.00,0.170
726.50,0.170
727.00,0.170
727.50,0.170
728.00,0.170
728.50,0.170
729.00,0.169
729.50,0.169
730.00,0.169
730.50,0.169
731.00,0.169
731.50,0.169
732.00,0.169
732.50,0.169
733.00,0.169
733.50,0.168
734.00,0.168
734.50,0.168
735.00,0.168
735.50,0.168
736.00,0.168
736.50,0.168
737.00,0.168
737.50,0.168
738.00,0.168
738.50,0.167
739.00,0.167
739.50,0.167
740.00,0.167
740.50,0.167
741.00,0.167
741.50,0.167
742.00,0.167
742.50,0.167
743.00,0.167
743.50,0.166
744.00,0.166
744.50,0.166
745.00,0.166
745.50,0.166
746.00,0.166
746.50,0.166
747.00,0.166
747.50,0.165
748.00,0.165
748.50,0.165
749.00,0.165
749.50,0.165
750.00,0.165
750.50,0.165
751.00,0.165
751.50,0.165
752.00,0.164
752.50,0.164
753.00,0.164
753.50,0.164
754.00,0.164
754.50,0.164
755.00,0.164
755.50,0.164
756.00,0.163
756.50,0.163
757.00,0.163
757.50,0.163
758.00,0.163
758.50,0.163
759.00,0.163
759.50,0.162
760.00,0.162
760.50,0.162
761.00,0.162
761.50,0.162
762.00,0.162
762.50,0.162
763.00,0.162
763.50,0.162
764.00,0.162
764.50,0.161
765.00,0.161
765.50,0.161
766.00,0.161
766.50,0.161
767.00,0.160
767.50,0.160
768.00,0.160
768.50,0.160
769.00,0.160
769.50,0.160
770.00,0.160
770.50,0.159
771.00,0.159
771.50,0.159
772.00,0.159
772.50,0.159
773.00,0.159
773.50,0.159
774.00,0.159
774.50,0.158
775.00,0.158
775.50,0.158
776.00,0.158
776.50,0.158
777.00,0.158
777.50,0.158
778.00,0.158
778.50,0.158
779.00,0.157
779.50,0.157
780.00,0.157
780.50,0.157
781.00,0.157
781.50,0.157
782.00,0.157
782.50,0.157
783.00,0.157
783.50,0.157
784.00,0.157
784.50,0.157
785.00,0.156
785.50,0.156
786.00,0.156
786.50,0.156
787.00,0.156
787.50,0.156
788.00,0.156
788.50,0.156
789.00,0.156
789.50,0.156
790.00,0.156
790.50,0.156
791.00,0.156
791.50,0.156
792.00,0.156
792.50,0.156
793.00,0.156
793.50,0.156
794.00,0.156
794.50,0.156
795.00,0.156
795.50,0.156
796.00,0.156
796.50,0.156
797.00,0.156
797.50,0.156
798.00,0.156
798.50,0.156
799.00,0.156
799.50,0.156
800.00,0.156
800.50,0.156
801.00,0.157
801.50,0.157
802.00,0.157
802.50,0.157
803.00,0.157
803.50,0.157
804.00,0.157
804.50,0.157
805.00,0.157
805.50,0.157
806.00,0.157
806.50,0.157
807.00,0.158
807.50,0.158
808.00,0.158
808.50,0.158
809.00,0.158
809.50,0.158
810.00,0.158
810.50,0.158
811.00,0.159
811.50,0.159
812.00,0.159
812.50,0.159
813.00,0.159
813.50,0.159
814.00,0.159
814.50,0.160
815.00,0.160
815.50,0.160
816.00,0.160
816.50,0.160
817.00,0.161
817.50,0.161
818.00,0.161
818.50,0.161
819.00,0.161
819.50,0.162
820.00,0.162
820.50,0.162
821.00,0.162
821.50,0.163
822.00,0.163
822.50,0.163
823.00,0.164
823.50,0.164
824.00,0.164
824.50,0.164
825.00,0.165
825.50,0.165
826.00,0.165
826.50,0.166
827.00,0.166
827.50,0.166
828.00,0.166
828.50,0.167
829.00,0.167
829.50,0.167
830.00,0.168
830.50,0.168
831.00,0.168
831.50,0.169
832.00,0.169
832.50,0.169
833.00,0.170
833.50,0.170
834.00,0.170
834.50,0.171
835.00,0.171
835.50,0.172
836.00,0.172
836.50,0.172
837.00,0.173
837.50,0.173
838.00,0.173
838.50,0.174
839.00,0.174
839.50,0.174
840.00,0.175
840.50,0.175
841.00,0.175
841.50,0.176
842.00,0.176
842.50,0.176
843.00,0.177
843.50,0.177
844.00,0.177
844.50,0.178
845.00,0.178
845.50,0.179
846.00,0.179
846.50,0.179
847.00,0.180
847.50,0.180
848.00,0.181
848.50,0.181
849.00,0.181
849.50,0.182
850.00,0.182
850.50,0.182
851.00,0.183
851.50,0.183
852.00,0.184
852.50,0.184
853.00,0.184
853.50,0.185
854.00,0.185
854.50,0.185
855.00,0.186
855.50,0.186
856.00,0.186
856.50,0.187
857.00,0.188
857.50,0.188
858.00,0.188
858.50,0.189
859.00,0.189
859.50,0.190
860.00,0.190
860.50,0.190
861.00,0.191
861.50,0.191
862.00,0.192
862.50,0.192
863.00,0.192
863.50,0.193
864.00,0.194
864.50,0.194
865.00,0.195
865.50,0.195
866.00,0.195
866.50,0.196
867.00,0.196
867.50,0.197
868.00,0.197
868.50,0.198
869.00,0.198
869.50,0.199
870.00,0.199
870.50,0.200
871.00,0.200
871.50,0.201
872.00,0.202
872.50,0.202
873.00,0.202
873.50,0.203
874.00,0.203
874.50,0.204
875.00,0.204
875.50,0.205
876.00,0.205
876.50,0.205
877.00,0.205
877.50,0.206
878.00,0.206
878.50,0.206
879.00,0.206
879.50,0.206
880.00,0.206
880.50,0.207
881.00,0.207
881.50,0.206
882.00,0.207
882.50,0.207
883.00,0.207
883.50,0.207
884.00,0.207
884.50,0.207
885.00,0.207
885.50,0.207
886.00,0.207
886.50,0.207
887.00,0.207
887.50,0.206
888.00,0.207
888.50,0.207
889.00,0.206
889.50,0.206
890.00,0.207
890.50,0.208
891.00,0.208
891.50,0.209
892.00,0.210
892.50,0.210
893.00,0.209
893.50,0.210
894.00,0.210
894.50,0.210
895.00,0.211
895.50,0.211
896.00,0.211
896.50,0.210
897.00,0.210
897.50,0.210
898.00,0.210
898.50,0.210
899.00,0.209
899.50,0.210
900.00,0.210
900.50,0.210
901.00,0.209
901.50,0.208
902.00,0.208
902.50,0.209
903.00,0.209
903.50,0.209
904.00,0.209
904.50,0.210
905.00,0.211
905.50,0.210
906.00,0.210
906.50,0.209
907.00,0.209
907.50,0.209
908.00,0.209
908.50,0.209
909.00,0.209
909.50,0.210
910.00,0.210
910.50,0.210
911.00,0.209
911.50,0.209
912.00,0.210
912.50,0.209
913.00,0.209
913.50,0.209
914.00,0.209
914.50,0.209
915.00,0.208
915.50,0.207
916.00,0.207
916.50,0.207
917.00,0.206
917.50,0.207
918.00,0.207
918.50,0.208
919.00,0.208
919.50,0.207
920.00,0.206
920.50,0.205
921.00,0.204
921.50,0.204
922.00,0.205
922.50,0.205
923.00,0.203
923.50,0.203
924.00,0.203
924.50,0.201
925.00,0.201
925.50,0.201
926.00,0.202
926.50,0.201
927.00,0.201
927.50,0.200
928.00,0.200
928.50,0.201
929.00,0.201
929.50,0.200
930.00,0.200
930.50,0.199
931.00,0.198
931.50,0.199
932.00,0.198
932.50,0.197
933.00,0.197
933.50,0.200
934.00,0.200
934.50,0.201
935.00,0.201
935.50,0.201
936.00,0.203
936.50,0.202
937.00,0.201
937.50,0.202
938.00,0.201
938.50,0.200
939.00,0.199
939.50,0.198
940.00,0.198
940.50,0.198
941.00,0.197
941.50,0.196
942.00,0.194
942.50,0.193
943.00,0.193
943.50,0.193
944.00,0.194
944.50,0.193
945.00,0.192
945.50,0.192
946.00,0.192
946.50,0.193
947.00,0.192
947.50,0.193
948.00,0.192
948.50,0.190
949.00,0.188
949.50,0.187
950.00,0.189
950.50,0.190
951.00,0.189
951.50,0.186
952.00,0.185
952.50,0.185
953.00,0.188
953.50,0.188
954.00,0.187
954.50,0.189
955.00,0.187
955.50,0.186
956.00,0.186
956.50,0.186
957.00,0.186
957.50,0.184
958.00,0.186
958.50,0.188
959.00,0.187
959.50,0.185
960.00,0.183
960.50,0.183
961.00,0.186
961.50,0.189
962.00,0.190
962.50,0.193
963.00,0.194
963.50,0.190
964.00,0.188
964.50,0.189
965.00,0.189
965.50,0.189
966.00,0.190
966.50,0.191
967.00,0.194
967.50,0.195
968.00,0.195
968.50,0.197
969.00,0.196
969.50,0.194
970.00,0.195
970.50,0.196
971.00,0.197
971.50,0.199
972.00,0.196
972.50,0.199
973.00,0.203
973.50,0.204
974.00,0.205
974.50,0.205
975.00,0.209
975.50,0.211
976.00,0.211
976.50,0.212
977.00,0.211
977.50,0.212
978.00,0.211
978.50,0.214
979.00,0.215
979.50,0.212
980.00,0.214
980.50,0.217
981.00,0.219
981.50,0.219
982.00,0.222
982.50,0.225
983.00,0.226
983.50,0.229
984.00,0.231
984.50,0.231
985.00,0.228
985.50,0.225
986.00,0.222
986.50,0.220
987.00,0.217
987.50,0.216
988.00,0.220
988.50,0.220
989.00,0.220
989.50,0.224
990.00,0.228
990.50,0.229
991.00,0.228
991.50,0.229
992.00,0.227
992.50,0.225
993.00,0.225
993.50,0.224
994.00,0.223
994.50,0.223
995.00,0.224
995.50,0.223
996.00,0.226
996.50,0.224
997.00,0.222
997.50,0.221
998.00,0.221
998.50,0.222
999.00,0.220
999.50,0.221
1000.00,0.221
1000.50,0.222
1001.00,0.221
1001.50,0.219
1002.00,0.220
1002.50,0.222
1003.00,0.225
1003.50,0.224
1004.00,0.216
1004.50,0.215
1005.00,0.218
1005.50,0.220
1006.00,0.220
1006.50,0.216
1007.00,0.211
1007.50,0.215
1008.00,0.216
1008.50,0.212
1009.00,0.213
1009.50,0.211
1010.00,0.210
1010.50,0.208
1011.00,0.208
1011.50,0.208
1012.00,0.206
1012.50,0.205
1013.00,0.201
1013.50,0.201
1014.00,0.204
1014.50,0.212
1015.00,0.212
1015.50,0.208
1016.00,0.204
1016.50,0.204
1017.00,0.204
1017.50,0.203
1018.00,0.206
1018.50,0.207
1019.00,0.204
1019.50,0.201
1020.00,0.202
1020.50,0.204
1021.00,0.200
1021.50,0.195
1022.00,0.194
1022.50,0.192
1023.00,0.189
1023.50,0.189
1024.00,0.193
1024.50,0.193
1025.00,0.192
1025.50,0.192
1026.00,0.191
1026.50,0.190
1027.00,0.187
1027.50,0.185
1028.00,0.186
1028.50,0.191
1029.00,0.192
1029.50,0.191
1030.00,0.190
1030.50,0.187
1031.00,0.185
1031.50,0.180
1032.00,0.175
1032.50,0.180
1033.00,0.186
1033.50,0.190
1034.00,0.190
1034.50,0.187
1035.00,0.186
1035.50,0.184
1036.00,0.183
1036.50,0.182
1037.00,0.178
1037.50,0.176
1038.00,0.177
1038.50,0.178
1039.00,0.181
1039.50,0.183
1040.00,0.181
1040.50,0.176
1041.00,0.178
1041.50,0.180
1042.00,0.177
1042.50,0.177
1043.00,0.178
1043.50,0.176
1044.00,0.173
1044.50,0.170
1045.00,0.168
1045.50,0.171
1046.00,0.175
1046.50,0.174
1047.00,0.174
1047.50,0.181
1048.00,0.178
1048.50,0.173
1049.00,0.176
1049.50,0.175
1050.00,0.177
1050.50,0.175
1051.00,0.174
1051.50,0.177
1052.00,0.179
1052.50,0.175
1053.00,0.175
1053.50,0.172
1054.00,0.165
1054.50,0.163
1055.00,0.161
1055.50,0.161
1056.00,0.162
1056.50,0.165
1057.00,0.167
1057.50,0.166
1058.00,0.167
1058.50,0.163
1059.00,0.164
1059.50,0.166
1060.00,0.167
1060.50,0.169
1061.00,0.171
1061.50,0.169
1062.00,0.163
1062.50,0.163
1063.00,0.164
1063.50,0.160
1064.00,0.162
1064.50,0.160
1065.00,0.160
1065.50,0.168
1066.00,0.168
1066.50,0.168
1067.00,0.165
1067.50,0.164
1068.00,0.169
1068.50,0.171
1069.00,0.172
1069.50,0.178
1070.00,0.183
1070.50,0.182
1071.00,0.183
1071.50,0.182
1072.00,0.186
1072.50,0.191
1073.00,0.185
1073.50,0.173
1074.00,0.161
1074.50,0.153
1075.00,0.152
1075.50,0.155
1076.00,0.157
1076.50,0.158
1077.00,0.160
1077.50,0.159
1078.00,0.156
1078.50,0.157
1079.00,0.160
1079.50,0.160
1080.00,0.157
1080.50,0.158
1081.00,0.161
1081.50,0.161
1082.00,0.158
1082.50,0.155
1083.00,0.157
1083.50,0.160
1084.00,0.158
1084.50,0.155
1085.00,0.156
1085.50,0.157
1086.00,0.158
1086.50,0.158
1087.00,0.161
1087.50,0.162
1088.00,0.163
1088.50,0.163
1089.00,0.162
1089.50,0.162
1090.00,0.162
1090.50,0.163
1091.00,0.161
1091.50,0.157
1092.00,0.160
1092.50,0.158
1093.00,0.152
1093.50,0.152
1094.00,0.155
1094.50,0.157
1095.00,0.159
1095.50,0.160
1096.00,0.159
1096.50,0.160
1097.00,0.160
1097.50,0.161
1098.00,0.161
1098.50,0.158
1099.00,0.158
1099.50,0.160
1100.00,0.158